Folder: perovskite-solar/XRD_Data/standards

File: MAPbCl3.txt
5	0
5.16	0
5.32	0
5.48	0
5.64	0
5.8	0
5.96	0
6.12	0
6.28	0
6.44	0
6.6	0
6.76	0
6.92	0
7.08	0
7.24	0
7.4	0
7.56	0
7.72	0
7.88	0
8.04	0
8.2	0
8.36	0
8.52	0
8.68	0
8.84	0
9	0
9.16	0
9.32	0
9.48	0
9.64	0
9.8	0
9.96	0
10.12	0
10.28	0
10.44	0
10.6	0
10.76	0
10.92	0
11.08	0
11.24	0
11.4	0
11.56	0
11.72	0
11.88	0
12.04	0
12.2	0
12.36	0
12.52	0
12.68	0
12.84	0
13	0
13.16	0
13.32	0
13.48	0
13.64	0
13.8	0
13.96	0
14.12	11.0229
14.28	14.1126
14.44	18.7086
14.6	25.9749
14.76	38.461
14.92	62.6709
15.08	119.521
15.24	309.465
15.4	1962.62
15.56	3629.23
15.72	391.927
15.88	138.244
16.04	69.5895
16.2	41.7349
16.36	27.7732
16.52	19.7999
16.68	14.8238
16.84	11.5118
17	0
17.16	0
17.32	0
17.48	0
17.64	0
17.8	0
17.96	0
18.12	0
18.28	0
18.44	0
18.6	0
18.76	0
18.92	0
19.08	0
19.24	0
19.4	0
19.56	0
19.72	0
19.88	0
20.04	0
20.2	0
20.36	0
20.52	0
20.68	7.74312
20.84	10.0631
21	13.6051
21.16	19.405
21.32	29.8806
21.48	51.8075
21.64	110.616
21.8	373.172
21.96	5458.81
22.12	604.493
22.28	142.536
22.44	61.4799
22.6	33.9934
22.76	21.5184
22.92	14.8305
23.08	10.8357
23.24	8.26112
23.4	6.50565
23.56	0
23.72	0
23.88	0
24.04	0
24.2	0
24.36	0
24.52	0
24.68	0
24.84	0
25	0
25.16	0
25.32	0
25.48	0
25.64	0.708698
25.8	0.908996
25.96	1.20788
26.12	1.68241
26.28	2.50266
26.44	4.10725
26.6	7.93189
26.76	21.1061
26.92	150.129
27.08	187.484
27.24	22.9733
27.4	8.35736
27.56	4.26464
27.72	2.57717
27.88	1.72335
28.04	1.23273
28.2	0.925189
28.36	0.71983
28.52	0
28.68	0
28.84	0
29	0
29.16	0
29.32	0
29.48	0
29.64	0
29.8	0
29.96	4.2159
30.12	5.4542
30.28	7.32987
30.44	10.3684
30.6	15.7723
30.76	26.8146
30.92	55.1879
31.08	170.002
31.24	2100.12
31.4	464.754
31.56	92.7162
31.72	38.0348
31.88	20.5197
32.04	12.8022
32.2	8.73934
32.36	6.34217
32.52	4.81093
32.68	3.77385
32.84	0
33	0
33.16	0
33.32	0
33.48	0
33.64	5.48485
33.8	6.93048
33.96	9.03267
34.12	12.2583
34.28	17.5762
34.44	27.2762
34.6	47.8969
34.76	104.782
34.92	376.583
35.08	5453.94
35.24	448.873
35.4	114.968
35.56	50.9948
35.72	28.5952
35.88	18.2544
36.04	12.6517
36.2	9.28076
36.36	7.09683
36.52	5.60176
36.68	0
36.84	0
37	0
37.16	3.06328
37.32	3.90167
37.48	5.13769
37.64	7.06881
37.8	10.3327
37.96	16.5072
38.12	30.426
38.28	73.3127
38.44	352.704
38.6	1887.82
38.76	145.319
38.92	46.2905
39.08	22.3163
39.24	13.0711
39.4	8.57
39.56	6.04763
39.72	4.4942
39.88	3.47041
40.04	0
40.2	0
40.36	0
40.52	0
40.68	0
40.84	0
41	0
41.16	0
41.32	0
41.48	0
41.64	0
41.8	0
41.96	0
42.12	0
42.28	0
42.44	0
42.6	0
42.76	0
42.92	0
43.08	0
43.24	0
43.4	1.95619
43.56	2.48063
43.72	3.24797
43.88	4.43489
44.04	6.41346
44.2	10.081
44.36	18.0804
44.52	41.2234
44.68	166.269
44.84	1815.25
45	123.072
45.16	35.1741
45.32	16.2426
45.48	9.29882
45.64	6.01135
45.8	4.20167
45.96	3.1009
46.12	2.38203
46.28	4.46476
46.44	3.2677
46.6	4.27634
46.76	5.83515
46.92	8.43048
47.08	13.2327
47.24	23.6771
47.4	53.7324
47.56	213.79
47.72	2445.78
47.88	166.641
48.04	47.1102
48.2	21.6642
48.36	12.3758
48.52	7.98994
48.68	5.57963
48.84	4.11521
49	3.15966
49.16	2.50194
49.32	0
49.48	0
49.64	0
49.8	0
49.96	0
50	0

File: MAPbI3.txt
0.0000	0.0000e+00
0.2675	0.0000e+00
0.5350	0.0000e+00
0.8025	0.0000e+00
1.0700	0.0000e+00
1.3375	0.0000e+00
1.6050	0.0000e+00
1.8725	0.0000e+00
2.1400	0.0000e+00
2.4075	0.0000e+00
2.6750	0.0000e+00
2.9425	0.0000e+00
3.2100	0.0000e+00
3.4775	0.0000e+00
3.7450	0.0000e+00
4.0125	0.0000e+00
4.2800	0.0000e+00
4.5475	0.0000e+00
4.8150	0.0000e+00
5.0825	0.0000e+00
5.3500	0.0000e+00
5.6175	0.0000e+00
5.8850	0.0000e+00
6.1525	0.0000e+00
6.4200	0.0000e+00
6.6875	0.0000e+00
6.9550	0.0000e+00
7.2225	0.0000e+00
7.4900	0.0000e+00
7.7575	0.0000e+00
8.0250	0.0000e+00
8.2925	0.0000e+00
8.5600	0.0000e+00
8.8275	0.0000e+00
9.0950	0.0000e+00
9.3625	0.0000e+00
9.6300	0.0000e+00
9.8975	0.0000e+00
10.1650	0.0000e+00
10.4325	0.0000e+00
10.7000	0.0000e+00
10.9675	0.0000e+00
11.2350	0.0000e+00
11.5025	0.0000e+00
11.7700	0.0000e+00
12.0375	0.0000e+00
12.3050	0.0000e+00
12.5725	0.0000e+00
12.8400	0.0000e+00
13.1075	0.0000e+00
13.3750	0.0000e+00
13.6425	0.0000e+00
13.9100	3.4251e+02
14.1775	7.1794e+02
14.4450	0.0000e+00
14.7125	0.0000e+00
14.9800	0.0000e+00
15.2475	0.0000e+00
15.5150	0.0000e+00
15.7825	0.0000e+00
16.0500	0.0000e+00
16.3175	0.0000e+00
16.5850	0.0000e+00
16.8525	0.0000e+00
17.1200	0.0000e+00
17.3875	0.0000e+00
17.6550	0.0000e+00
17.9225	0.0000e+00
18.1900	0.0000e+00
18.4575	0.0000e+00
18.7250	0.0000e+00
18.9925	0.0000e+00
19.2600	0.0000e+00
19.5275	0.0000e+00
19.7950	1.0211e+00
20.0625	8.1971e+01
20.3300	0.0000e+00
20.5975	0.0000e+00
20.8650	0.0000e+00
21.1325	0.0000e+00
21.4000	0.0000e+00
21.6675	0.0000e+00
21.9350	0.0000e+00
22.2025	0.0000e+00
22.4700	0.0000e+00
22.7375	0.0000e+00
23.0050	0.0000e+00
23.2725	0.0000e+00
23.5400	1.9400e+02
23.8075	0.0000e+00
24.0750	0.0000e+00
24.3425	1.4404e-02
24.6100	1.2876e+01
24.8775	0.0000e+00
25.1450	0.0000e+00
25.4125	0.0000e+00
25.6800	0.0000e+00
25.9475	0.0000e+00
26.2150	0.0000e+00
26.4825	0.0000e+00
26.7500	0.0000e+00
27.0175	0.0000e+00
27.2850	0.0000e+00
27.5525	0.0000e+00
27.8200	0.0000e+00
28.0875	3.2437e+02
28.3550	4.6832e-02
28.6225	6.4001e+01
28.8900	0.0000e+00
29.1575	0.0000e+00
29.4250	0.0000e+00
29.6925	0.0000e+00
29.9600	0.0000e+00
30.2275	0.0000e+00
30.4950	0.0000e+00
30.7625	3.7787e-02
31.0300	5.2057e+00
31.2975	0.0000e+00
31.5650	1.9856e+02
31.8325	7.2241e+01
32.1000	1.2621e+01
32.3675	0.0000e+00
32.6350	0.0000e+00
32.9025	0.0000e+00
33.1700	0.0000e+00
33.4375	0.0000e+00
33.7050	0.0000e+00
33.9725	0.0000e+00
34.2400	0.0000e+00
34.5075	0.0000e+00
34.7750	4.7056e+01
35.0425	8.6987e+01
35.3100	0.0000e+00
35.5775	0.0000e+00
35.8450	0.0000e+00
36.1125	0.0000e+00
36.3800	0.0000e+00
36.6475	0.0000e+00
36.9150	0.0000e+00
37.1825	9.5642e-02
37.4500	3.5384e-01
37.7175	0.0000e+00
37.9850	0.0000e+00
38.2525	0.0000e+00
38.5200	0.0000e+00
38.7875	0.0000e+00
39.0550	0.0000e+00
39.3225	0.0000e+00
39.5900	0.0000e+00
39.8575	0.0000e+00
40.1250	0.0000e+00
40.3925	4.7064e+01
40.6600	5.0259e-01
40.9275	9.9710e-01
41.1950	0.0000e+00
41.4625	0.0000e+00
41.7300	0.0000e+00
41.9975	0.0000e+00
42.2650	2.3636e+01
42.5325	7.0221e+00
42.8000	3.1052e+01
43.0675	2.3407e+02
43.3350	4.3320e+01
43.6025	9.1906e-05
43.8700	0.0000e+00
44.1375	0.0000e+00
44.4050	0.0000e+00
44.6725	0.0000e+00
44.9400	0.0000e+00
45.2075	5.0705e+00
45.4750	0.0000e+00
45.7425	7.4532e-01
46.0100	1.9648e-01
46.2775	0.0000e+00
46.5450	0.0000e+00
46.8125	0.0000e+00
47.0800	0.0000e+00
47.3475	6.6297e-02
47.6150	6.1374e+00
47.8825	0.0000e+00
48.1500	8.1168e-01
48.4175	1.3484e-07
48.6850	0.0000e+00
48.9525	0.0000e+00
49.2200	0.0000e+00
49.4875	0.0000e+00
49.7550	0.0000e+00
50.0225	5.4461e-06
50.2900	7.8283e+01
50.5575	0.0000e+00
50.8250	0.0000e+00
51.0925	0.0000e+00
51.3600	0.0000e+00
51.6275	3.0596e-03
51.8950	3.5014e-01
52.1625	4.3834e+01
52.4300	5.1732e+00
52.6975	9.0450e+00
52.9650	2.6706e-04
53.2325	0.0000e+00
53.5000	0.0000e+00
53.7675	0.0000e+00
54.0350	0.0000e+00
54.3025	1.2280e+01
54.5700	4.5609e+00
54.8375	2.6754e+00
55.1050	0.0000e+00
55.3725	0.0000e+00
55.6400	1.2414e+00
55.9075	1.0749e-03
56.1750	4.5761e+00
56.4425	2.0633e+00
56.7100	1.6479e-07
56.9775	0.0000e+00
57.2450	0.0000e+00
57.5125	0.0000e+00
57.7800	0.0000e+00
58.0475	1.6138e+01
58.3150	3.0094e-06
58.5825	0.0000e+00
58.8500	3.1483e-05
59.1175	8.3732e+00
59.3850	0.0000e+00
59.6525	0.0000e+00
59.9200	2.0975e-03
60.1875	4.3496e+00
60.4550	2.1481e+00
60.7225	1.0092e+00
60.9900	1.4137e+01
61.2575	5.2515e-03
61.5250	0.0000e+00
61.7925	0.0000e+00
62.0600	7.4532e+00
62.3275	2.6079e-06
62.5950	2.0926e-04
62.8625	5.9410e-01
63.1300	1.6412e+00
63.3975	0.0000e+00
63.6650	3.7823e-02
63.9325	3.0279e-03
64.2000	2.0780e+00
64.4675	1.6384e+01
64.7350	2.4696e-04
65.0025	8.7460e-01
65.2700	0.0000e+00
65.5375	0.0000e+00
65.8050	2.9479e-02
66.0725	1.5470e+00
66.3400	0.0000e+00
66.6075	9.6906e+00
66.8750	1.1610e+01
67.1425	0.0000e+00
67.4100	2.7313e-04
67.6775	1.4218e+00
67.9450	5.0952e+00
68.2125	7.9559e+00
68.4800	2.4853e+01
68.7475	3.4408e+00
69.0150	0.0000e+00
69.2825	0.0000e+00
69.5500	0.0000e+00
69.8175	0.0000e+00
70.0850	1.1226e+00
70.3525	7.2464e+00
70.6200	1.7204e-05
70.8875	1.3076e+00
71.1550	0.0000e+00
71.4225	0.0000e+00
71.6900	2.5022e-05
71.9575	5.7004e+00
72.2250	1.1200e-06
72.4925	0.0000e+00
72.7600	0.0000e+00
73.0275	0.0000e+00
73.2950	1.1417e+00
73.5625	6.3618e-03
73.8300	1.3621e-05
74.0975	9.6478e+00
74.3650	0.0000e+00
74.6325	2.1488e-01
74.9000	1.1779e+00
75.1675	4.0842e+00
75.4350	1.4199e+00
75.7025	6.6188e-02
75.9700	5.1824e-01
76.2375	6.8968e-03
76.5050	4.9910e-01
76.7725	1.3957e-05
77.0400	6.7152e+00
77.3075	4.1443e+00
77.5750	1.9363e-04
77.8425	1.2550e+01
78.1100	4.9942e-01
78.3775	3.8483e-03
78.6450	2.0112e-03
78.9125	1.1970e-01
79.1800	1.8372e+00
79.4475	3.2887e-02
79.7150	3.5234e-02
79.9825	0.0000e+00
80.0000	0.0000e+00

File: pbbr2.txt
5	0
5.16	0
5.32	0
5.48	0
5.64	0
5.8	0
5.96	0
6.12	0
6.28	0
6.44	0
6.6	0
6.76	0
6.92	0
7.08	0
7.24	0
7.4	0
7.56	0
7.72	0
7.88	0
8.04	0
8.2	0
8.36	0
8.52	0
8.68	0
8.84	0
9	0
9.16	0
9.32	0
9.48	0
9.64	0
9.8	0
9.96	0
10.12	0
10.28	0
10.44	0
10.6	0
10.76	0
10.92	0
11.08	0
11.24	0
11.4	0
11.56	0
11.72	0
11.88	0
12.04	0
12.2	0
12.36	0
12.52	0
12.68	0
12.84	0
13	0.0664498
13.16	0.0844739
13.32	0.110958
13.48	0.152156
13.64	0.221367
13.8	0.351126
13.96	0.639399
14.12	1.50298
14.28	6.65663
14.44	50.3562
14.6	3.54893
14.76	1.08134
14.92	0.512002
15.08	0.297014
15.24	0.193574
15.4	0.136045
15.56	0.100802
15.72	0.0776657
15.88	0.061666
16.04	0
16.2	0
16.36	0
16.52	0
16.68	0
16.84	0
17	0
17.16	0
17.32	2.99964
17.48	3.81352
17.64	5.00956
17.8	6.87032
17.96	9.99695
18.12	15.8606
18.28	28.8937
18.44	67.9728
18.6	301.831
18.76	2258.77
18.92	159.556
19.08	48.6911
19.24	23.0689
19.4	15.3162
19.56	11.1649
19.72	9.31268
19.88	8.86064
20.04	9.69235
20.2	12.3932
20.36	22.8608
20.52	44.6483
20.68	147.716
20.84	1945.22
21	182.761
21.16	82.2836
21.32	93.1739
21.48	185.089
21.64	853.7
21.8	3067.89
21.96	1719.07
22.12	633.892
22.28	148.978
22.44	75.517
22.6	54.491
22.76	49.6576
22.92	56.0447
23.08	78.6608
23.24	138.67
23.4	405.432
23.56	4617.97
23.72	1277.8
23.88	345.118
24.04	198.937
24.2	65.3847
24.36	37.2256
24.52	24.5078
24.68	17.4487
24.84	13.0811
25	10.1798
25.16	0.56899
25.32	0.44323
25.48	0
25.64	0
25.8	0
25.96	0
26.12	0
26.28	0
26.44	0
26.6	0
26.76	0
26.92	0
27.08	0
27.24	0
27.4	3.40032
27.56	7.90495
27.72	14.4616
27.88	19.347
28.04	27.2725
28.2	41.5178
28.36	71.698
28.52	159.306
28.68	817.987
28.84	1461.59
29	4178.24
29.16	887.987
29.32	202.348
29.48	104.454
29.64	78.5002
29.8	78.9339
29.96	104.532
30.12	189.669
30.28	599.17
30.44	4553.57
30.6	1837.93
30.76	312.748
30.92	124.119
31.08	66.0492
31.24	40.9112
31.4	27.8056
31.56	20.12
31.72	15.2308
31.88	10.6246
32.04	0
32.2	0
32.36	0
32.52	0
32.68	9.78748
32.84	12.5526
33	16.6782
33.16	23.227
33.32	35.5731
33.48	57.9893
33.64	111.124
33.8	293.091
33.96	2059.76
34.12	2621.26
34.28	329.757
34.44	145.425
34.6	290.219
34.76	539.762
34.92	68.2334
35.08	34.2161
35.24	24.3916
35.4	21.5875
35.56	16.9016
35.72	42.1532
35.88	320.152
36.04	412.53
36.2	261.535
36.36	46.5239
36.52	24.4611
36.68	19.739
36.84	20.883
37	30.345
37.16	45.0709
37.32	81.3374
37.48	209.36
37.64	1702.11
37.8	1161.48
37.96	958.639
38.12	239.629
38.28	268.754
38.44	2922.3
38.6	426.208
38.76	117.253
38.92	70.6238
39.08	67.3947
39.24	94.2492
39.4	249.265
39.56	2747.98
39.72	946.563
39.88	167.734
40.04	74.6326
40.2	52.8722
40.36	54.0911
40.52	83.9966
40.68	191.301
40.84	1451.68
41	1233.26
41.16	170.146
41.32	64.3213
41.48	34.003
41.64	22.0685
41.8	16.6207
41.96	15.1724
42.12	19.3705
42.28	52.7469
42.44	494.49
42.6	38.3206
42.76	20.7989
42.92	44.6696
43.08	270.398
43.24	29.2874
43.4	21.2709
43.56	31.0388
43.72	70.213
43.88	473.036
44.04	734.02
44.2	372.386
44.36	342.212
44.52	52.586
44.68	47.4845
44.84	285.953
45	144.072
45.16	123.807
45.32	22.4421
45.48	10.662
45.64	9.35145
45.8	21.0251
45.96	271.31
46.12	23.2388
46.28	6.59978
46.44	2.64377
46.6	1.51363
46.76	0.899195
46.92	2.04419
47.08	2.40737
47.24	2.92403
47.4	3.83073
47.56	5.3532
47.72	8.58564
47.88	16.6175
48.04	40.8473
48.2	231.267
48.36	577.072
48.52	126.048
48.68	31.5379
48.84	30.4294
49	166.373
49.16	456.436
49.32	74.114
49.48	43.6962
49.64	10.7047
49.8	4.642
49.96	4.07182
50	4.48677

File: pbcl2.txt
5.02	0
5.18	0
5.34	0
5.5	0
5.66	0
5.82	0
5.98	0
6.14	0
6.3	0
6.46	0
6.62	0
6.78	0
6.94	0
7.1	0
7.26	0
7.42	0
7.58	0
7.74	0
7.9	0
8.06	0
8.22	0
8.38	0
8.54	0
8.7	0
8.86	0
9.02	0
9.18	0
9.34	0
9.5	0
9.66	0
9.82	0
9.98	0
10.14	0
10.3	0
10.46	0
10.62	0
10.78	0
10.94	0
11.1	0
11.26	0
11.42	0
11.58	0
11.74	0
11.9	0
12.06	0
12.22	0
12.38	0
12.54	0
12.7	0
12.86	0
13.02	0
13.18	0
13.34	0
13.5	0
13.66	0
13.82	0.0977884
13.98	0.12523
14.14	0.166067
14.3	0.230669
14.46	0.34177
14.62	0.557454
14.78	1.06497
14.94	2.76774
15.1	17.8271
15.26	31.2189
15.42	3.43164
15.58	1.21582
15.74	0.613206
15.9	0.368155
16.06	0.245163
16.22	0.174863
16.38	0.130962
16.54	0.101729
16.7	0
16.86	0
17.02	0
17.18	0
17.34	0
17.5	0
17.66	0
17.82	0
17.98	0
18.14	0
18.3	1.57209
18.46	2.03591
18.62	2.7397
18.78	3.88253
18.94	5.922
19.1	10.1115
19.26	20.9776
19.42	65.8809
19.58	856.683
19.74	159.514
19.9	33.1834
20.06	13.7749
20.22	7.4742
20.38	4.67883
20.54	6.64098
20.7	6.73254
20.86	7.61072
21.02	9.50648
21.18	12.0342
21.34	19.6399
21.5	46.1347
21.66	108.848
21.82	650.428
21.98	1104.33
22.14	156.719
22.3	101.791
22.46	133.455
22.62	309.156
22.78	2407.79
22.94	1738.63
23.1	403.458
23.26	1413.79
23.42	971.996
23.58	176.107
23.74	87.1299
23.9	63.1289
24.06	59.0583
24.22	69.2416
24.38	95.8613
24.54	199.765
24.7	715.09
24.86	10000
25.02	773.811
25.18	210.123
25.34	205.658
25.5	60.5806
25.66	35.0441
25.82	23.7096
25.98	17.2233
26.14	13.1044
26.3	10.3131
26.46	0.197706
26.62	0.151146
26.78	0.119283
26.94	0
27.1	0
27.26	0
27.42	0
27.58	0
27.74	0
27.9	0
28.06	0
28.22	0
28.38	0
28.54	0
28.7	0
28.86	0.401142
29.02	0.511485
29.18	1.402
29.34	3.30881
29.5	4.44923
29.66	6.34943
29.82	9.97753
29.98	18.9942
30.14	65.8516
30.3	250.728
30.46	126.706
30.62	1452.9
30.78	229.764
30.94	56.2898
31.1	30.4956
31.26	24.6583
31.42	26.4516
31.58	36.0685
31.74	66.6082
31.9	333.018
32.06	400.278
32.22	5318.32
32.38	405.564
32.54	107.574
32.7	48.4351
32.86	27.4006
33.02	17.5961
33.18	12.2482
33.34	9.01448
33.5	6.72766
33.66	5.31511
33.82	0
33.98	0
34.14	0
34.3	4.92174
34.46	6.22586
34.62	8.12589
34.78	11.0486
34.94	15.8836
35.1	24.7466
35.26	43.8651
35.42	97.0585
35.58	360.396
35.74	4954.54
35.9	370.232
36.06	99.0013
36.22	45.5895
36.38	29.2147
36.54	39.7637
36.7	60.1597
36.86	15.2467
37.02	10.7762
37.18	10.3655
37.34	9.49997
37.5	26.5838
37.66	311.281
37.82	74.6367
37.98	134.581
38.14	49.5826
38.3	13.2716
38.46	9.43881
38.62	8.79743
38.78	9.93599
38.94	12.8435
39.1	18.7689
39.26	34.239
39.42	71.5021
39.58	253.21
39.74	2729.06
39.9	654.304
40.06	109.389
40.22	63.8455
40.38	74.9314
40.54	202.832
40.7	2741.88
40.86	271.499
41.02	81.199
41.18	52.4861
41.34	55.2332
41.5	132.765
41.66	810.107
41.82	467.688
41.98	2504.49
42.14	204.592
42.3	76.8348
42.46	53.5356
42.62	58.9228
42.78	110.287
42.94	292.319
43.1	4117.42
43.26	481.375
43.42	111.607
43.58	48.346
43.74	27.1363
43.9	17.7746
44.06	13.2078
44.22	11.696
44.38	13.7692
44.54	34.8934
44.7	290.221
44.86	20.4347
45.02	10.2068
45.18	10.9579
45.34	17.8056
45.5	97.5438
45.66	46.9223
45.82	33.8741
45.98	58.1019
46.14	168.114
46.3	2143.81
46.46	472.561
46.62	1341.84
46.78	249.651
46.94	64.5654
47.1	34.2105
47.26	26.3468
47.42	32.7619
47.58	105.058
47.74	618.562
47.9	48.0865
48.06	15.282
48.22	7.3244
48.38	5.05301
48.54	5.32043
48.7	15.243
48.86	70.1883
49.02	6.39861
49.18	1.71871
49.34	0.830305
49.5	0.486873
49.66	0.31944
49.82	0.225528
49.98	0.167656
50	0.162025